* Measurement data measured by REW V5.20.9
* Source: Frequency Response Averaged data
* Format: Averaged data produced from the rms magnitudes of Meze Advar Jul 12, Meze Advar Jul 12, Meze Advar Jul 12
* Dated: 12/07/2022 7:49:00 PM
* REW Settings:
*  C-weighting compensation: Off
*  Target level: 75.0 dB
* Note: ; Averaged data produced from the rms magnitudes of Meze Advar Jul 12, Meze Advar Jul 12, Meze Advar Jul 12
* Measurement: Meze Advar - R
* Smoothing: 1/24 octave
* Frequency Step: 1/48 octave
* Start Frequency: 2.200 Hz
*
* Freq(Hz) SPL(dB)
2.200000 76.491
2.240000 76.649
2.270000 76.767
2.300000 76.886
2.330000 77.004
2.360000 77.123
2.400000 77.281
2.430000 77.400
2.470000 77.558
2.500000 77.676
2.540000 77.834
2.580000 78.002
2.620000 78.193
2.650000 78.343
2.690000 78.550
2.720000 78.707
2.760000 78.919
2.800000 79.128
2.850000 79.380
2.900000 79.616
2.950000 79.829
3.000000 80.024
3.040000 80.169
3.070000 80.274
3.110000 80.408
3.150000 80.538
3.200000 80.697
3.250000 80.856
3.300000 81.017
3.350000 81.181
3.400000 81.343
3.450000 81.503
3.500000 81.660
3.550000 81.814
3.600000 81.963
3.650000 82.106
3.700000 82.244
3.750000 82.376
3.820000 82.555
3.870000 82.677
3.950000 82.864
4.000000 82.975
4.060000 83.104
4.120000 83.227
4.180000 83.345
4.250000 83.474
4.310000 83.579
4.370000 83.680
4.440000 83.790
4.500000 83.878
4.550000 83.948
4.620000 84.039
4.680000 84.113
4.750000 84.194
4.820000 84.268
4.870000 84.316
4.940000 84.378
5.000000 84.428
5.080000 84.491
5.150000 84.545
5.220000 84.595
5.300000 84.648
5.380000 84.700
5.450000 84.747
5.520000 84.797
5.600000 84.855
5.700000 84.928
5.800000 85.010
5.900000 85.104
6.000000 85.208
6.080000 85.299
6.150000 85.383
6.220000 85.471
6.300000 85.579
6.400000 85.725
6.500000 85.877
6.600000 86.029
6.700000 86.184
6.800000 86.342
6.900000 86.495
7.000000 86.638
7.100000 86.774
7.200000 86.903
7.300000 87.019
7.400000 87.120
7.500000 87.207
7.620000 87.297
7.750000 87.374
7.880000 87.427
8.000000 87.465
8.120000 87.497
8.250000 87.521
8.380000 87.546
8.500000 87.582
8.620000 87.623
8.750000 87.682
8.850000 87.743
9.000000 87.856
9.120000 87.959
9.250000 88.083
9.380000 88.220
9.500000 88.343
9.620000 88.458
9.750000 88.579
9.880000 88.680
10.000000 88.750
10.150000 88.813
10.300000 88.840
10.440000 88.831
10.600000 88.793
10.750000 88.732
10.900000 88.653
11.060000 88.579
11.200000 88.517
11.380000 88.473
11.500000 88.475
11.720000 88.533
11.800000 88.575
12.060000 88.772
12.200000 88.894
12.410000 89.088
12.500000 89.160
12.650000 89.271
12.800000 89.361
13.150000 89.467
13.200000 89.475
13.400000 89.479
13.600000 89.475
13.800000 89.474
14.000000 89.499
14.300000 89.590
14.500000 89.687
14.750000 89.817
15.000000 89.936
15.250000 90.009
15.500000 90.031
15.750000 90.005
16.000000 89.950
16.250000 89.902
16.500000 89.880
16.750000 89.907
17.000000 89.972
17.250000 90.061
17.500000 90.149
17.750000 90.210
18.000000 90.238
18.250000 90.228
18.500000 90.199
18.750000 90.168
19.000000 90.149
19.250000 90.161
19.500000 90.198
19.750000 90.258
20.000000 90.321
20.299999 90.383
20.600000 90.416
20.900000 90.417
21.200001 90.395
21.400000 90.380
21.799999 90.368
22.000000 90.378
22.400000 90.433
22.700001 90.490
23.000000 90.540
23.299999 90.570
23.600000 90.577
24.000000 90.562
24.299999 90.552
24.700001 90.565
25.000000 90.598
25.400000 90.656
25.799999 90.696
26.200001 90.695
26.500000 90.673
26.900000 90.642
27.200001 90.635
27.600000 90.654
28.000000 90.685
28.500000 90.692
29.000000 90.656
29.500000 90.625
30.000000 90.645
30.400000 90.683
30.700001 90.703
31.100000 90.698
31.500000 90.660
32.000000 90.607
32.500000 90.594
33.000000 90.617
33.500000 90.639
34.000000 90.633
34.500000 90.612
35.000000 90.597
35.500000 90.597
36.000000 90.608
36.500000 90.625
37.000000 90.645
37.500000 90.662
38.200001 90.673
38.700001 90.679
39.500000 90.694
40.000000 90.694
40.599998 90.670
41.200001 90.640
41.799999 90.614
42.500000 90.564
43.099998 90.490
43.700001 90.437
44.400002 90.472
45.000000 90.560
45.500000 90.614
46.200001 90.613
46.799999 90.565
47.500000 90.503
48.200001 90.449
48.700001 90.422
49.400002 90.412
50.000000 90.419
50.799999 90.418
51.500000 90.415
52.200001 90.434
53.000000 90.452
53.799999 90.419
54.500000 90.366
55.200001 90.329
56.000000 90.315
57.000000 90.315
58.000000 90.316
59.000000 90.320
60.000000 90.296
60.799999 90.262
61.500000 90.241
62.200001 90.234
63.000000 90.232
64.000000 90.202
65.000000 90.152
66.000000 90.115
67.000000 90.077
68.000000 90.035
69.000000 89.989
70.000000 89.953
71.000000 89.956
72.000000 89.957
73.000000 89.921
74.000000 89.872
75.000000 89.846
76.199997 89.843
77.500000 89.814
78.800003 89.731
80.000000 89.631
81.199997 89.598
82.500000 89.621
83.800003 89.561
85.000000 89.488
86.199997 89.410
87.500000 89.328
88.500000 89.336
90.000000 89.413
91.199997 89.422
92.500000 89.308
93.800003 89.202
95.000000 89.199
96.199997 89.254
97.500000 89.339
98.800003 89.367
100.000000 89.253
101.500000 89.047
103.000000 88.948
104.400002 88.954
106.000000 88.956
107.500000 88.913
109.000000 88.917
110.599998 88.954
112.000000 88.937
113.800003 88.844
115.000000 88.764
117.199997 88.652
118.000000 88.625
120.599998 88.573
122.000000 88.527
124.099998 88.357
125.000000 88.271
126.500000 88.137
128.000000 88.102
131.500000 88.486
132.000000 88.503
134.000000 88.389
136.000000 88.334
138.000000 88.271
140.000000 88.190
143.000000 88.218
145.000000 88.225
147.500000 88.154
150.000000 88.094
152.500000 88.048
155.000000 87.983
157.500000 87.927
160.000000 87.900
162.500000 87.915
165.000000 87.916
167.500000 87.862
170.000000 87.789
172.500000 87.722
175.000000 87.663
177.500000 87.615
180.000000 87.569
182.500000 87.519
185.000000 87.471
187.500000 87.421
190.000000 87.374
192.500000 87.330
195.000000 87.287
197.500000 87.244
200.000000 87.198
203.000000 87.148
206.000000 87.106
209.000000 87.066
212.000000 87.025
214.000000 86.996
218.000000 86.946
220.000000 86.917
224.000000 86.853
227.000000 86.805
230.000000 86.761
233.000000 86.719
236.000000 86.680
240.000000 86.627
243.000000 86.585
247.000000 86.525
250.000000 86.483
254.000000 86.440
258.000000 86.393
262.000000 86.339
265.000000 86.304
269.000000 86.258
272.000000 86.220
276.000000 86.172
280.000000 86.129
285.000000 86.072
290.000000 86.018
295.000000 85.969
300.000000 85.919
304.000000 85.878
307.000000 85.847
311.000000 85.806
315.000000 85.765
320.000000 85.716
325.000000 85.672
330.000000 85.627
335.000000 85.580
340.000000 85.532
345.000000 85.485
350.000000 85.441
355.000000 85.402
360.000000 85.364
365.000000 85.324
370.000000 85.282
375.000000 85.239
382.000000 85.184
387.000000 85.145
395.000000 85.090
400.000000 85.055
406.000000 85.013
412.000000 84.972
418.000000 84.930
425.000000 84.883
431.000000 84.845
437.000000 84.805
444.000000 84.758
450.000000 84.720
455.000000 84.692
462.000000 84.653
468.000000 84.617
475.000000 84.575
482.000000 84.536
487.000000 84.509
494.000000 84.471
500.000000 84.440
508.000000 84.401
515.000000 84.366
522.000000 84.330
530.000000 84.291
538.000000 84.256
545.000000 84.226
552.000000 84.194
560.000000 84.156
570.000000 84.115
580.000000 84.075
590.000000 84.040
600.000000 84.006
608.000000 83.978
615.000000 83.954
622.000000 83.932
630.000000 83.909
640.000000 83.877
650.000000 83.845
660.000000 83.827
670.000000 83.810
680.000000 83.793
690.000000 83.776
700.000000 83.761
710.000000 83.749
720.000000 83.741
730.000000 83.735
740.000000 83.735
750.000000 83.737
762.000000 83.735
775.000000 83.740
788.000000 83.752
800.000000 83.767
812.000000 83.785
825.000000 83.812
838.000000 83.844
850.000000 83.879
862.000000 83.914
875.000000 83.955
885.000000 83.991
900.000000 84.051
912.000000 84.103
925.000000 84.162
938.000000 84.224
950.000000 84.281
962.000000 84.339
975.000000 84.404
988.000000 84.472
1000.000000 84.533
1015.000000 84.610
1030.000000 84.687
1044.000000 84.757
1060.000000 84.828
1075.000000 84.894
1090.000000 84.959
1106.000000 85.030
1120.000000 85.096
1138.000000 85.185
1150.000000 85.243
1172.000000 85.344
1180.000000 85.379
1206.000000 85.496
1220.000000 85.557
1241.000000 85.646
1250.000000 85.684
1265.000000 85.749
1280.000000 85.814
1315.000000 85.960
1320.000000 85.981
1340.000000 86.064
1360.000000 86.145
1380.000000 86.224
1400.000000 86.302
1430.000000 86.420
1450.000000 86.498
1475.000000 86.595
1500.000000 86.691
1525.000000 86.787
1550.000000 86.885
1575.000000 86.984
1600.000000 87.082
1625.000000 87.182
1650.000000 87.283
1675.000000 87.381
1700.000000 87.481
1725.000000 87.580
1750.000000 87.679
1775.000000 87.777
1800.000000 87.874
1825.000000 87.969
1850.000000 88.061
1875.000000 88.151
1900.000000 88.237
1925.000000 88.319
1950.000000 88.396
1975.000000 88.467
2000.000000 88.531
2030.000000 88.600
2060.000000 88.658
2090.000000 88.709
2120.000000 88.758
2140.000000 88.794
2180.000000 88.877
2200.000000 88.922
2240.000000 89.007
2270.000000 89.052
2300.000000 89.082
2330.000000 89.113
2360.000000 89.164
2400.000000 89.303
2430.000000 89.480
2470.000000 89.786
2500.000000 90.024
2540.000000 90.292
2580.000000 90.484
2620.000000 90.605
2650.000000 90.656
2690.000000 90.675
2720.000000 90.656
2760.000000 90.593
2800.000000 90.496
2850.000000 90.338
2900.000000 90.151
2950.000000 89.950
3000.000000 89.748
3040.000000 89.596
3070.000000 89.492
3110.000000 89.366
3150.000000 89.248
3200.000000 89.105
3250.000000 88.958
3300.000000 88.807
3350.000000 88.653
3400.000000 88.494
3450.000000 88.327
3500.000000 88.150
3550.000000 87.967
3600.000000 87.786
3650.000000 87.625
3700.000000 87.492
3750.000000 87.389
3820.000000 87.282
3870.000000 87.224
3950.000000 87.152
4000.000000 87.118
4060.000000 87.086
4120.000000 87.064
4180.000000 87.052
4250.000000 87.054
4310.000000 87.072
4370.000000 87.106
4440.000000 87.164
4500.000000 87.227
4550.000000 87.285
4620.000000 87.377
4680.000000 87.469
4750.000000 87.601
4820.000000 87.765
4870.000000 87.900
4940.000000 88.112
5000.000000 88.315
5080.000000 88.615
5150.000000 88.905
5220.000000 89.221
5300.000000 89.617
5380.000000 90.046
5450.000000 90.448
5520.000000 90.872
5600.000000 91.378
5700.000000 92.029
5800.000000 92.683
5900.000000 93.311
6000.000000 93.881
6080.000000 94.278
6150.000000 94.570
6220.000000 94.800
6300.000000 94.977
6400.000000 95.053
6500.000000 94.974
6600.000000 94.769
6700.000000 94.480
6800.000000 94.151
6900.000000 93.820
7000.000000 93.517
7100.000000 93.262
7200.000000 93.065
7300.000000 92.932
7400.000000 92.865
7500.000000 92.879
7620.000000 93.023
7750.000000 93.327
7880.000000 93.727
8000.000000 94.088
8120.000000 94.316
8250.000000 94.244
8380.000000 93.701
8500.000000 92.761
8620.000000 91.483
8750.000000 89.872
8850.000000 88.572
9000.000000 86.647
9120.000000 85.188
9250.000000 83.729
9380.000000 82.427
9500.000000 81.403
9620.000000 80.606
9750.000000 80.063
9880.000000 79.891
10000.000000 80.030
10150.000000 80.455
10300.000000 80.927
10440.000000 81.236
10600.000000 81.348
10750.000000 81.235
10900.000000 80.982
11060.000000 80.645
11200.000000 80.352
11380.000000 80.032
11500.000000 79.873
11720.000000 79.722
11800.000000 79.716
12060.000000 79.895
12200.000000 80.124
12410.000000 80.657
12500.000000 80.961
12650.000000 81.577
12800.000000 82.343
13150.000000 84.772
13200.000000 85.187
13400.000000 86.910
13600.000000 88.407
13800.000000 89.165
14000.000000 88.887
14300.000000 86.989
14500.000000 85.437
14750.000000 83.804
15000.000000 82.728
15250.000000 82.254
15500.000000 82.407
15750.000000 83.175
16000.000000 84.233
16250.000000 84.706
16500.000000 83.703
16750.000000 81.146
17000.000000 77.752
17250.000000 74.333
17500.000000 71.288
17750.000000 68.666
18000.000000 66.404
18250.000000 64.434
18500.000000 62.694
18750.000000 61.148
19000.000000 59.741
19250.000000 58.404
19500.000000 57.048
19750.000000 55.638
