* Measurement data measured by REW V5.20.9
* Source: USB-C to 3.5mm Headphone Jack Adapter, USB-C to 3.5mm Headphone Jack Adapter, 0, volume: 0.138
* Format: 256k Log Swept Sine, 1 sweep at -12.0 dBFS with no timing reference
* Dated: 23/05/2023 8:43:26 PM
* REW Settings:
*  C-weighting compensation: Off
*  Target level: 75.0 dB
* Note: ; 
* Measurement: GAS2 R
* Smoothing: 1/24 octave
* Frequency Step: 1/48 octave
* Start Frequency: 1.000 Hz
*
* Freq(Hz) SPL(dB) Phase(degrees)
1.000000 38.343 -140.2171
1.015000 38.323 -137.9694
1.030000 38.373 -135.6128
1.044000 38.476 -133.2974
1.060000 38.656 -130.5322
1.075000 38.880 -127.8419
1.090000 39.151 -125.0743
1.106000 39.488 -122.0559
1.120000 39.818 -119.3744
1.138000 40.283 -115.8944
1.150000 40.615 -113.5674
1.172000 41.259 -109.3192
1.180000 41.502 -107.7885
1.206000 42.311 -102.9072
1.220000 42.753 -100.3604
1.241000 43.412 -96.6846
1.250000 43.691 -95.1723
1.265000 44.144 -92.7491
1.280000 44.581 -90.4625
1.315000 45.508 -85.7525
1.320000 45.627 -85.1603
1.340000 46.061 -83.0183
1.360000 46.438 -82.4383
1.380000 46.800 -82.3097
1.400000 47.150 -82.0893
1.430000 47.655 -81.6165
1.450000 47.978 -81.2266
1.475000 48.366 -80.6791
1.500000 48.737 -80.0898
1.525000 49.092 -79.4855
1.550000 49.432 -78.8929
1.575000 49.757 -78.3388
1.600000 50.066 -77.8499
1.625000 50.362 -77.4529
1.650000 50.643 -77.1746
1.675000 50.911 -77.0417
1.700000 51.164 -77.1228
1.725000 51.402 -77.3420
1.750000 51.623 -77.6618
1.775000 51.829 -78.0722
1.800000 52.019 -78.5631
1.825000 52.195 -79.1241
1.850000 52.356 -79.7453
1.875000 52.503 -80.4163
1.900000 52.637 -81.1270
1.925000 52.758 -81.8672
1.950000 52.865 -82.6268
1.975000 52.961 -83.3955
2.000000 53.044 -84.1633
2.030000 53.130 -85.0850
2.060000 53.201 -86.1473
2.090000 53.258 -87.3524
2.120000 53.299 -88.6560
2.140000 53.317 -89.5582
2.180000 53.325 -91.3832
2.200000 53.314 -92.2800
2.240000 53.263 -93.9770
2.270000 53.195 -95.1137
2.300000 53.099 -96.0851
2.330000 52.975 -96.8470
2.360000 52.820 -97.3621
2.400000 52.568 -98.1002
2.430000 52.348 -98.7571
2.470000 52.014 -99.5976
2.500000 51.734 -100.0836
2.540000 51.321 -100.3660
2.580000 50.865 -100.0330
2.620000 50.367 -98.8687
2.650000 49.966 -97.3202
2.690000 49.398 -94.1823
2.720000 48.881 -90.8387
2.760000 47.979 -85.0230
2.800000 46.924 -77.9849
2.850000 45.546 -68.0164
2.900000 44.283 -57.4023
2.950000 43.331 -46.8452
3.000000 42.886 -37.0476
3.040000 43.027 -30.1581
3.070000 43.460 -25.0497
3.110000 44.404 -18.0994
3.150000 45.670 -11.1757
3.200000 47.539 -2.8673
3.250000 49.528 4.6871
3.300000 51.428 11.0921
3.350000 53.025 15.9519
3.400000 54.231 18.9036
3.450000 55.288 20.0426
3.500000 56.233 19.7866
3.550000 57.088 18.5594
3.600000 57.871 16.7845
3.650000 58.604 14.8857
3.700000 59.306 13.2866
3.750000 59.962 11.7802
3.820000 60.768 9.0808
3.870000 61.277 6.8912
3.950000 62.007 3.2620
4.000000 62.426 1.0991
4.060000 62.908 -1.2148
4.120000 63.343 -3.3443
4.180000 63.730 -5.3835
4.250000 64.130 -7.7116
4.310000 64.437 -9.7177
4.370000 64.717 -11.7836
4.440000 65.007 -14.3163
4.500000 65.218 -16.5577
4.550000 65.370 -18.4350
4.620000 65.550 -21.0161
4.680000 65.679 -23.1274
4.750000 65.800 -25.4255
4.820000 65.884 -27.6179
4.870000 65.922 -29.1207
4.940000 65.950 -31.1267
5.000000 65.953 -32.7468
5.080000 65.930 -34.7606
5.150000 65.875 -36.4294
5.220000 65.793 -37.9800
5.300000 65.676 -39.5457
5.380000 65.546 -40.8223
5.450000 65.415 -41.6873
5.520000 65.261 -42.3503
5.600000 65.077 -42.8616
5.700000 64.861 -43.1332
5.800000 64.673 -42.9320
5.900000 64.493 -42.2518
6.000000 64.356 -41.3253
6.080000 64.300 -40.5497
6.150000 64.289 -39.7375
6.220000 64.308 -38.8290
6.300000 64.361 -37.8045
6.400000 64.467 -36.7684
6.500000 64.632 -35.9882
6.600000 64.845 -35.3978
6.700000 65.068 -35.0965
6.800000 65.280 -35.1739
6.900000 65.503 -35.6006
7.000000 65.716 -36.2699
7.100000 65.896 -37.0904
7.200000 66.051 -38.1455
7.300000 66.182 -39.3534
7.400000 66.286 -40.5692
7.500000 66.359 -41.7900
7.620000 66.409 -43.2954
7.750000 66.437 -44.7735
7.880000 66.432 -46.0529
8.000000 66.410 -47.0739
8.120000 66.397 -47.8804
8.250000 66.382 -48.4920
8.380000 66.387 -48.9302
8.500000 66.428 -49.2209
8.620000 66.497 -49.3773
8.750000 66.605 -49.5768
8.850000 66.717 -49.7814
9.000000 66.925 -50.1527
9.120000 67.108 -50.6237
9.250000 67.327 -51.3188
9.380000 67.553 -52.1766
9.500000 67.754 -53.1174
9.620000 67.953 -54.2090
9.750000 68.157 -55.4752
9.880000 68.343 -56.8085
10.000000 68.501 -58.0959
10.150000 68.681 -59.6669
10.300000 68.840 -61.2101
10.440000 68.976 -62.5768
10.600000 69.120 -64.0208
10.750000 69.248 -65.2751
10.900000 69.377 -66.4220
11.060000 69.513 -67.5464
11.200000 69.636 -68.4763
11.380000 69.797 -69.5958
11.500000 69.904 -70.3243
11.720000 70.101 -71.6176
11.800000 70.170 -72.0752
12.060000 70.382 -73.5213
12.200000 70.486 -74.2385
12.410000 70.629 -75.2216
12.500000 70.687 -75.5846
12.650000 70.778 -76.1185
12.800000 70.869 -76.5462
13.150000 71.097 -77.1104
13.200000 71.134 -77.1473
13.400000 71.298 -77.2104
13.600000 71.495 -77.2336
13.800000 71.723 -77.2764
14.000000 71.982 -77.4463
14.300000 72.400 -78.1064
14.500000 72.678 -78.8664
14.750000 73.002 -80.2051
15.000000 73.267 -81.8706
15.250000 73.460 -83.6964
15.500000 73.572 -85.4991
15.750000 73.604 -87.0415
16.000000 73.583 -88.0787
16.250000 73.545 -88.5231
16.500000 73.529 -88.3669
16.750000 73.582 -87.7440
17.000000 73.726 -87.0057
17.250000 73.950 -86.4229
17.500000 74.227 -86.2181
17.750000 74.511 -86.5216
18.000000 74.761 -87.2176
18.250000 74.961 -88.1377
18.500000 75.105 -89.0943
18.750000 75.205 -89.8700
19.000000 75.289 -90.3930
19.250000 75.378 -90.6938
19.500000 75.489 -90.8508
19.750000 75.627 -91.0384
20.000000 75.777 -91.3708
20.299999 75.949 -92.0034
20.600000 76.086 -92.8221
20.900000 76.175 -93.6402
21.200001 76.230 -94.2641
21.400000 76.261 -94.5201
21.799999 76.349 -94.7654
22.000000 76.414 -94.8545
22.400000 76.575 -95.1788
22.700001 76.697 -95.6390
23.000000 76.799 -96.2143
23.299999 76.878 -96.7692
23.600000 76.946 -97.1887
24.000000 77.060 -97.5277
24.299999 77.179 -97.7687
24.700001 77.373 -98.3457
25.000000 77.515 -99.0468
25.400000 77.660 -100.2141
25.799999 77.746 -101.3121
26.200001 77.806 -102.0771
26.500000 77.863 -102.4355
26.900000 77.971 -102.8131
27.200001 78.072 -103.1470
27.600000 78.206 -103.7132
28.000000 78.325 -104.3176
28.500000 78.462 -104.9246
29.000000 78.626 -105.4180
29.500000 78.818 -106.0947
30.000000 78.990 -107.1030
30.400000 79.085 -108.0211
30.700001 79.130 -108.6577
31.100000 79.166 -109.3283
31.500000 79.193 -109.7421
32.000000 79.246 -109.9194
32.500000 79.352 -109.8512
33.000000 79.529 -109.8336
33.500000 79.755 -110.2095
34.000000 79.967 -111.1282
34.500000 80.108 -112.3822
35.000000 80.169 -113.5477
35.500000 80.188 -114.3366
36.000000 80.210 -114.7640
36.500000 80.260 -115.0150
37.000000 80.335 -115.2537
37.500000 80.427 -115.5764
38.200001 80.557 -116.2668
38.700001 80.629 -116.8723
39.500000 80.716 -117.6154
40.000000 80.801 -117.8951
40.599998 80.957 -118.4077
41.200001 81.116 -119.3605
41.799999 81.221 -120.4896
42.500000 81.301 -121.4913
43.099998 81.385 -122.0912
43.700001 81.484 -122.6778
44.400002 81.588 -123.3230
45.000000 81.676 -123.7772
45.500000 81.752 -124.1621
46.200001 81.845 -124.7733
46.799999 81.909 -125.3293
47.500000 81.964 -126.1132
48.200001 81.949 -126.9507
48.700001 81.900 -127.1937
49.400002 81.905 -126.8180
50.000000 82.063 -126.6049
50.799999 82.333 -127.7505
51.500000 82.432 -129.4920
52.200001 82.438 -130.7550
53.000000 82.472 -131.6052
53.799999 82.538 -132.3091
54.500000 82.608 -132.7955
55.200001 82.693 -133.2991
56.000000 82.761 -133.9305
57.000000 82.834 -134.3264
58.000000 82.971 -134.9872
59.000000 83.022 -136.2265
60.000000 83.008 -137.0115
60.799999 83.039 -137.5063
61.500000 83.074 -138.0749
62.200001 83.099 -138.6265
63.000000 83.139 -139.0939
64.000000 83.239 -139.6806
65.000000 83.353 -140.5624
66.000000 83.439 -141.6309
67.000000 83.483 -142.7665
68.000000 83.481 -143.7128
69.000000 83.487 -144.2999
70.000000 83.541 -144.8218
71.000000 83.618 -145.5439
72.000000 83.682 -146.4287
73.000000 83.717 -147.3270
74.000000 83.725 -148.0574
75.000000 83.737 -148.5755
76.199997 83.771 -149.1623
77.500000 83.809 -149.9252
78.800003 83.835 -150.7617
80.000000 83.855 -151.5804
81.199997 83.863 -152.4014
82.500000 83.865 -153.1726
83.800003 83.876 -153.7667
85.000000 83.911 -154.2704
86.199997 83.954 -154.8821
87.500000 83.991 -155.6172
88.500000 84.014 -156.2255
90.000000 84.034 -157.2080
91.199997 84.032 -157.9572
92.500000 84.029 -158.6628
93.800003 84.029 -159.3218
95.000000 84.027 -159.8653
96.199997 84.027 -160.3477
97.500000 84.029 -160.8730
98.800003 84.026 -161.3956
100.000000 84.022 -161.8586
101.500000 84.017 -162.4131
103.000000 84.014 -162.9251
104.400002 84.010 -163.3926
106.000000 83.993 -163.9495
107.500000 83.961 -164.5023
109.000000 83.925 -165.0768
110.599998 83.898 -165.7260
112.000000 83.890 -166.3173
113.800003 83.889 -167.0290
115.000000 83.886 -167.4189
117.199997 83.867 -167.9872
118.000000 83.854 -168.1779
120.599998 83.814 -168.8458
122.000000 83.804 -169.3376
124.099998 83.779 -170.1527
125.000000 83.766 -170.4476
126.500000 83.746 -170.8560
128.000000 83.730 -171.2258
131.500000 83.674 -172.1786
132.000000 83.663 -172.3092
134.000000 83.620 -172.7649
136.000000 83.588 -173.1364
138.000000 83.559 -173.4944
140.000000 83.518 -173.8721
143.000000 83.452 -174.4763
145.000000 83.434 -174.9471
147.500000 83.457 -175.5481
150.000000 83.456 -176.2853
152.500000 83.348 -176.6526
155.000000 83.248 -176.8427
157.500000 83.179 -177.1928
160.000000 83.138 -177.5330
162.500000 83.092 -177.8206
165.000000 83.029 -178.0784
167.500000 82.964 -178.3621
170.000000 82.906 -178.6312
172.500000 82.852 -178.8644
175.000000 82.800 -179.0981
177.500000 82.749 -179.3227
180.000000 82.695 -179.5271
182.500000 82.642 -179.7411
185.000000 82.594 -179.9807
187.500000 82.548 179.8110
190.000000 82.498 179.6976
192.500000 82.450 179.6015
195.000000 82.415 179.4395
197.500000 82.392 179.2405
200.000000 82.364 179.0922
203.000000 82.315 179.0335
206.000000 82.265 178.9930
209.000000 82.227 178.9661
212.000000 82.196 178.9333
214.000000 82.174 178.8797
218.000000 82.130 178.7288
220.000000 82.108 178.6931
224.000000 82.062 178.6751
227.000000 82.027 178.6062
230.000000 81.993 178.5123
233.000000 81.968 178.4543
236.000000 81.944 178.4503
240.000000 81.904 178.5254
243.000000 81.885 178.5845
247.000000 81.885 178.6797
250.000000 81.887 178.6706
254.000000 81.868 178.4085
258.000000 81.845 178.0335
262.000000 81.812 177.5831
265.000000 81.771 177.2918
269.000000 81.697 177.0415
272.000000 81.639 176.9657
276.000000 81.572 176.9811
280.000000 81.504 177.0785
285.000000 81.435 177.2018
290.000000 81.378 177.2269
295.000000 81.308 177.2712
300.000000 81.228 177.4149
304.000000 81.161 177.5785
307.000000 81.116 177.7097
311.000000 81.063 177.8978
315.000000 81.016 178.0672
320.000000 80.970 178.2521
325.000000 80.931 178.4270
330.000000 80.896 178.5582
335.000000 80.872 178.6604
340.000000 80.851 178.8040
345.000000 80.824 179.0369
350.000000 80.797 179.2909
355.000000 80.778 179.4184
360.000000 80.755 179.5405
365.000000 80.726 179.7089
370.000000 80.700 179.8791
375.000000 80.678 -179.9583
382.000000 80.650 -179.7216
387.000000 80.630 -179.5665
395.000000 80.600 -179.3533
400.000000 80.583 -179.2108
406.000000 80.565 -179.0134
412.000000 80.547 -178.7925
418.000000 80.525 -178.5841
425.000000 80.496 -178.3466
431.000000 80.467 -178.1275
437.000000 80.439 -177.9035
444.000000 80.398 -177.7024
450.000000 80.363 -177.5390
455.000000 80.355 -177.3049
462.000000 80.351 -176.9754
468.000000 80.343 -176.7697
475.000000 80.332 -176.5588
482.000000 80.323 -176.3471
487.000000 80.315 -176.1950
494.000000 80.303 -175.9640
500.000000 80.292 -175.7463
508.000000 80.277 -175.4373
515.000000 80.265 -175.1748
522.000000 80.250 -174.9200
530.000000 80.231 -174.6215
538.000000 80.211 -174.3097
545.000000 80.194 -174.0048
552.000000 80.182 -173.7430
560.000000 80.176 -173.5417
570.000000 80.172 -173.2724
580.000000 80.175 -172.9780
590.000000 80.174 -172.6837
600.000000 80.166 -172.3531
608.000000 80.154 -172.0532
615.000000 80.144 -171.7909
622.000000 80.134 -171.5389
630.000000 80.122 -171.2497
640.000000 80.111 -170.8480
650.000000 80.104 -170.4431
660.000000 80.090 -170.1758
670.000000 80.083 -169.8996
680.000000 80.087 -169.5900
690.000000 80.093 -169.2897
700.000000 80.098 -168.9985
710.000000 80.105 -168.7250
720.000000 80.111 -168.4493
730.000000 80.114 -168.1364
740.000000 80.116 -167.7886
750.000000 80.118 -167.4285
762.000000 80.108 -167.0727
775.000000 80.100 -166.7041
788.000000 80.100 -166.3299
800.000000 80.102 -165.9950
812.000000 80.108 -165.6705
825.000000 80.116 -165.3072
838.000000 80.126 -164.9193
850.000000 80.135 -164.5485
862.000000 80.139 -164.2203
875.000000 80.143 -163.8465
885.000000 80.148 -163.5448
900.000000 80.150 -163.0896
912.000000 80.144 -162.7071
925.000000 80.136 -162.2582
938.000000 80.128 -161.7700
950.000000 80.124 -161.3138
962.000000 80.126 -160.8971
975.000000 80.128 -160.4488
988.000000 80.129 -159.9892
1000.000000 80.132 -159.5617
1015.000000 80.143 -159.0298
1030.000000 80.159 -158.5198
1044.000000 80.177 -158.0590
1060.000000 80.198 -157.4794
1075.000000 80.219 -156.8951
1090.000000 80.245 -156.3329
1106.000000 80.274 -155.7431
1120.000000 80.299 -155.2143
1138.000000 80.333 -154.5340
1150.000000 80.358 -154.0855
1172.000000 80.411 -153.2797
1180.000000 80.432 -152.9962
1206.000000 80.506 -152.0721
1220.000000 80.549 -151.5948
1241.000000 80.616 -150.8718
1250.000000 80.647 -150.5537
1265.000000 80.703 -150.0433
1280.000000 80.759 -149.5585
1315.000000 80.882 -148.4379
1320.000000 80.900 -148.2798
1340.000000 80.973 -147.6632
1360.000000 81.051 -147.0673
1380.000000 81.135 -146.4918
1400.000000 81.219 -145.9080
1430.000000 81.350 -145.0499
1450.000000 81.445 -144.5019
1475.000000 81.566 -143.8945
1500.000000 81.684 -143.3080
1525.000000 81.807 -142.7498
1550.000000 81.927 -142.2126
1575.000000 82.047 -141.6643
1600.000000 82.174 -141.1493
1625.000000 82.301 -140.6635
1650.000000 82.431 -140.1907
1675.000000 82.564 -139.7750
1700.000000 82.691 -139.4174
1725.000000 82.816 -139.0621
1750.000000 82.945 -138.7385
1775.000000 83.071 -138.4787
1800.000000 83.197 -138.2213
1825.000000 83.336 -138.0048
1850.000000 83.478 -137.8872
1875.000000 83.614 -137.8029
1900.000000 83.753 -137.7423
1925.000000 83.888 -137.7591
1950.000000 84.010 -137.7790
1975.000000 84.130 -137.7517
2000.000000 84.254 -137.7498
2030.000000 84.398 -137.8163
2060.000000 84.540 -137.9324
2090.000000 84.677 -138.1422
2120.000000 84.801 -138.4205
2140.000000 84.880 -138.6214
2180.000000 85.031 -139.0658
2200.000000 85.102 -139.3102
2240.000000 85.234 -139.8532
2270.000000 85.320 -140.2880
2300.000000 85.396 -140.7037
2330.000000 85.463 -141.1096
2360.000000 85.524 -141.5179
2400.000000 85.594 -142.0532
2430.000000 85.634 -142.4265
2470.000000 85.675 -142.8218
2500.000000 85.703 -143.0648
2540.000000 85.745 -143.3184
2580.000000 85.792 -143.6044
2620.000000 85.824 -143.8521
2650.000000 85.848 -143.9626
2690.000000 85.884 -144.0757
2720.000000 85.913 -144.1332
2760.000000 85.956 -144.2038
2800.000000 85.998 -144.2743
2850.000000 86.046 -144.3701
2900.000000 86.080 -144.3216
2950.000000 86.136 -144.1065
3000.000000 86.224 -143.9433
3040.000000 86.298 -143.8831
3070.000000 86.359 -143.8511
3110.000000 86.449 -143.8413
3150.000000 86.551 -143.9120
3200.000000 86.675 -144.1782
3250.000000 86.792 -144.5121
3300.000000 86.905 -144.9081
3350.000000 87.016 -145.4055
3400.000000 87.114 -146.0032
3450.000000 87.205 -146.6397
3500.000000 87.292 -147.3738
3550.000000 87.365 -148.2525
3600.000000 87.409 -149.2224
3650.000000 87.420 -150.2036
3700.000000 87.398 -151.0911
3750.000000 87.359 -151.7911
3820.000000 87.320 -152.5210
3870.000000 87.305 -153.0785
3950.000000 87.251 -154.0170
4000.000000 87.212 -154.5071
4060.000000 87.157 -155.1267
4120.000000 87.079 -155.6557
4180.000000 87.006 -155.9732
4250.000000 86.952 -156.3524
4310.000000 86.896 -156.8495
4370.000000 86.804 -157.3004
4440.000000 86.677 -157.4723
4500.000000 86.605 -157.3421
4550.000000 86.583 -157.3137
4620.000000 86.552 -157.5632
4680.000000 86.506 -157.7615
4750.000000 86.468 -157.9485
4820.000000 86.433 -158.2627
4870.000000 86.404 -158.4751
4940.000000 86.391 -158.7786
5000.000000 86.408 -159.3548
5080.000000 86.376 -160.9598
5150.000000 86.169 -162.4091
5220.000000 85.911 -162.6096
5300.000000 85.830 -162.6339
5380.000000 85.785 -164.0835
5450.000000 85.626 -165.9911
5520.000000 85.351 -168.0359
5600.000000 84.891 -170.3981
5700.000000 84.047 -172.8999
5800.000000 82.871 -173.9636
5900.000000 81.362 -171.9041
6000.000000 79.692 -164.9820
6080.000000 78.506 -155.0528
6150.000000 77.941 -143.7397
6220.000000 78.058 -131.7141
6300.000000 78.940 -119.4715
6400.000000 80.596 -108.7107
6500.000000 82.341 -102.9120
6600.000000 83.970 -100.7660
6700.000000 85.378 -101.3167
6800.000000 86.546 -103.3704
6900.000000 87.531 -106.1714
7000.000000 88.401 -109.2904
7100.000000 89.224 -112.9552
7200.000000 89.957 -117.6348
7300.000000 90.526 -123.3233
7400.000000 90.892 -129.5975
7500.000000 91.045 -136.0502
7620.000000 90.971 -143.4099
7750.000000 90.628 -150.4552
7880.000000 90.100 -156.2131
8000.000000 89.498 -160.7020
8120.000000 88.719 -164.2577
8250.000000 87.631 -165.3640
8380.000000 86.696 -162.1669
8500.000000 86.464 -158.4012
8620.000000 86.548 -156.8515
8750.000000 86.566 -156.7922
8850.000000 86.510 -156.9193
9000.000000 86.380 -157.0102
9120.000000 86.253 -156.8000
9250.000000 86.140 -156.0850
9380.000000 86.124 -155.0137
9500.000000 86.226 -154.1368
9620.000000 86.407 -153.7313
9750.000000 86.643 -153.9211
9880.000000 86.877 -154.7585
10000.000000 87.054 -155.9440
10150.000000 87.226 -157.5527
10300.000000 87.400 -159.0847
10440.000000 87.615 -160.6474
10600.000000 87.917 -163.0587
10750.000000 88.214 -166.2306
10900.000000 88.442 -170.4434
11060.000000 88.528 -175.6588
11200.000000 88.467 179.6900
11380.000000 88.244 174.0097
11500.000000 88.034 170.4978
11720.000000 87.546 164.7290
11800.000000 87.344 162.9148
12060.000000 86.692 158.2274
12200.000000 86.398 156.3489
12410.000000 86.089 154.0162
12500.000000 86.016 153.0987
12650.000000 85.986 151.5529
12800.000000 86.090 149.8249
13150.000000 86.969 143.0831
13200.000000 87.162 141.5138
13400.000000 87.996 132.7809
13600.000000 88.675 119.1766
13800.000000 88.757 101.0526
14000.000000 87.953 81.7810
14300.000000 85.335 59.1114
14500.000000 83.176 49.5808
14750.000000 80.557 42.0197
15000.000000 78.249 37.0874
15250.000000 76.266 33.3997
15500.000000 74.558 30.3193
15750.000000 73.113 27.3244
16000.000000 71.927 23.7686
16250.000000 70.930 18.9756
16500.000000 69.974 12.9100
16750.000000 68.966 6.4229
17000.000000 67.987 0.4098
17250.000000 67.255 -5.4786
17500.000000 66.871 -12.5488
17750.000000 66.788 -21.7693
18000.000000 66.972 -33.8833
18250.000000 67.366 -49.6695
18500.000000 67.915 -69.9674
18750.000000 68.538 -96.0952
19000.000000 68.995 -129.8229
19250.000000 68.928 -172.1111
19500.000000 68.011 138.9529
19750.000000 66.240 91.1877
