* Measurement data measured by REW V5.20.9
* Source: USB-C to 3.5mm Headphone Jack Adapter, USB-C to 3.5mm Headphone Jack Adapter, 0, volume: 0.138
* Format: 256k Log Swept Sine, 1 sweep at -12.0 dBFS with no timing reference
* Dated: 02/09/2022 9:42:38 PM
* REW Settings:
*  C-weighting compensation: Off
*  Target level: 75.0 dB
* Note: ; 
* Measurement: YD30 R
* Smoothing: 1/24 octave
* Frequency Step: 1/48 octave
* Start Frequency: 1.000 Hz
*
* Freq(Hz) SPL(dB) Phase(degrees)
1.000000 50.857 5.9674
1.015000 50.954 5.4172
1.030000 51.048 4.8426
1.044000 51.133 4.2839
1.060000 51.228 3.6203
1.075000 51.314 2.9757
1.090000 51.399 2.3110
1.106000 51.486 1.5817
1.120000 51.561 0.9278
1.138000 51.654 0.0678
1.150000 51.714 -0.5163
1.172000 51.822 -1.6065
1.180000 51.861 -2.0083
1.206000 51.982 -3.3301
1.220000 52.045 -4.0498
1.241000 52.137 -5.1360
1.250000 52.176 -5.6030
1.265000 52.239 -6.3821
1.280000 52.301 -7.1608
1.315000 52.441 -8.9666
1.320000 52.460 -9.2225
1.340000 52.537 -10.2380
1.360000 52.612 -11.2411
1.380000 52.686 -12.2383
1.400000 52.757 -13.2324
1.430000 52.860 -14.7221
1.450000 52.926 -15.7176
1.475000 53.005 -16.9682
1.500000 53.079 -18.2297
1.525000 53.149 -19.5064
1.550000 53.213 -20.8024
1.575000 53.272 -22.1220
1.600000 53.325 -23.4693
1.625000 53.373 -24.8485
1.650000 53.413 -26.2639
1.675000 53.447 -27.7197
1.700000 53.474 -29.2212
1.725000 53.497 -30.7712
1.750000 53.516 -32.3644
1.775000 53.529 -33.9947
1.800000 53.537 -35.6565
1.825000 53.539 -37.3440
1.850000 53.535 -39.0512
1.875000 53.524 -40.7725
1.900000 53.506 -42.5019
1.925000 53.481 -44.2338
1.950000 53.448 -45.9622
1.975000 53.407 -47.6813
2.000000 53.358 -49.3854
2.030000 53.288 -51.3965
2.060000 53.211 -53.3153
2.090000 53.127 -55.1563
2.120000 53.035 -56.9531
2.140000 52.969 -58.1428
2.180000 52.820 -60.5473
2.200000 52.736 -61.7819
2.240000 52.549 -64.3651
2.270000 52.389 -66.4414
2.300000 52.210 -68.6737
2.330000 52.010 -71.0956
2.360000 51.788 -73.7362
2.400000 51.450 -77.3182
2.430000 51.167 -80.0032
2.470000 50.757 -83.6840
2.500000 50.429 -86.5903
2.540000 49.970 -90.7624
2.580000 49.496 -95.3913
2.620000 49.012 -100.6051
2.650000 48.648 -104.9765
2.690000 48.167 -111.5222
2.720000 47.772 -117.0858
2.760000 47.136 -125.4072
2.800000 46.428 -134.5566
2.850000 45.529 -146.8174
2.900000 44.721 -159.5865
2.950000 44.113 -172.4276
3.000000 43.820 175.0956
3.040000 43.887 165.6192
3.070000 44.133 158.4392
3.110000 44.684 148.6367
3.150000 45.433 138.7392
3.200000 46.555 126.5117
3.250000 47.772 114.7767
3.300000 48.965 103.8903
3.350000 50.014 94.2083
3.400000 50.879 85.9904
3.450000 51.713 79.0276
3.500000 52.521 73.0633
3.550000 53.296 67.8489
3.600000 54.030 63.1356
3.650000 54.717 58.6747
3.700000 55.350 54.2175
3.750000 55.922 49.9421
3.820000 56.632 44.7216
3.870000 57.084 41.3616
3.950000 57.734 36.2623
4.000000 58.105 33.0444
4.060000 58.526 28.9595
4.120000 58.904 24.7762
4.180000 59.238 20.5930
4.250000 59.579 15.7693
4.310000 59.837 11.7322
4.370000 60.068 7.8300
4.440000 60.302 3.4636
4.500000 60.468 -0.1534
4.550000 60.582 -3.0931
4.620000 60.710 -7.1168
4.680000 60.792 -10.5002
4.750000 60.857 -14.3995
4.820000 60.885 -18.2534
4.870000 60.883 -20.9550
4.940000 60.852 -24.6293
5.000000 60.799 -27.6468
5.080000 60.693 -31.4492
5.150000 60.563 -34.6564
5.220000 60.399 -37.7090
5.300000 60.179 -40.9108
5.380000 59.930 -43.6975
5.450000 59.680 -45.8140
5.520000 59.394 -47.6899
5.600000 59.047 -49.4486
5.700000 58.625 -50.9131
5.800000 58.217 -51.3732
5.900000 57.794 -50.9169
6.000000 57.454 -49.8618
6.080000 57.306 -48.7699
6.150000 57.258 -47.3982
6.220000 57.273 -45.7372
6.300000 57.364 -43.8032
6.400000 57.584 -41.8723
6.500000 57.963 -40.4405
6.600000 58.468 -39.3513
6.700000 58.997 -38.8531
6.800000 59.498 -39.1642
6.900000 60.021 -40.2075
7.000000 60.525 -41.7410
7.100000 60.967 -43.5540
7.200000 61.361 -45.8048
7.300000 61.709 -48.3585
7.400000 62.004 -50.9588
7.500000 62.243 -53.5917
7.620000 62.459 -56.8633
7.750000 62.616 -60.2298
7.880000 62.687 -63.4105
8.000000 62.686 -66.1135
8.120000 62.635 -68.3557
8.250000 62.510 -70.3529
8.380000 62.351 -71.7441
8.500000 62.193 -72.3218
8.620000 62.013 -72.2840
8.750000 61.870 -71.6294
8.850000 61.808 -70.6083
9.000000 61.790 -68.4100
9.120000 61.892 -66.5542
9.250000 62.137 -64.3096
9.380000 62.479 -62.1832
9.500000 62.861 -60.7197
9.620000 63.321 -59.5895
9.750000 63.833 -58.8719
9.880000 64.334 -58.8129
10.000000 64.793 -59.2433
10.150000 65.303 -60.2261
10.300000 65.748 -61.7714
10.440000 66.092 -63.4241
10.600000 66.390 -65.5018
10.750000 66.586 -67.4585
10.900000 66.697 -69.2256
11.060000 66.737 -70.8624
11.200000 66.724 -71.8273
11.380000 66.646 -72.4850
11.500000 66.603 -72.4550
11.720000 66.535 -71.4524
11.800000 66.550 -70.9252
12.060000 66.745 -68.5413
12.200000 66.957 -67.4314
12.410000 67.403 -66.1166
12.500000 67.605 -65.9030
12.650000 67.973 -65.9819
12.800000 68.315 -66.5684
13.150000 68.917 -69.8245
13.200000 68.969 -70.4187
13.400000 69.098 -72.9900
13.600000 69.081 -75.3183
13.800000 68.943 -77.1823
14.000000 68.706 -78.1047
14.300000 68.357 -77.4686
14.500000 68.237 -75.9438
14.750000 68.352 -73.3250
15.000000 68.764 -71.3969
15.250000 69.331 -70.9079
15.500000 69.916 -72.2239
15.750000 70.368 -75.1902
16.000000 70.614 -79.0097
16.250000 70.642 -82.9904
16.500000 70.463 -86.4688
16.750000 70.119 -88.7229
17.000000 69.727 -89.3224
17.250000 69.411 -88.4229
17.500000 69.283 -86.4078
17.750000 69.429 -84.2137
18.000000 69.764 -82.7443
18.250000 70.187 -82.2975
18.500000 70.597 -82.9577
18.750000 70.915 -84.3375
19.000000 71.133 -85.9183
19.250000 71.270 -87.3855
19.500000 71.355 -88.4980
19.750000 71.439 -89.2164
20.000000 71.547 -89.7356
20.299999 71.714 -90.3568
20.600000 71.894 -91.2617
20.900000 72.035 -92.5243
21.200001 72.093 -93.9441
21.400000 72.077 -94.7866
21.799999 71.955 -95.7568
22.000000 71.882 -95.7758
22.400000 71.791 -95.0184
22.700001 71.819 -94.1553
23.000000 71.921 -93.4407
23.299999 72.053 -93.0844
23.600000 72.168 -93.0516
24.000000 72.254 -93.0635
24.299999 72.292 -92.7504
24.700001 72.394 -91.7109
25.000000 72.570 -90.7228
25.400000 72.955 -89.7939
25.799999 73.422 -89.9749
26.200001 73.837 -91.3571
26.500000 74.060 -92.8796
26.900000 74.230 -94.9518
27.200001 74.290 -96.2137
27.600000 74.345 -97.3553
28.000000 74.433 -98.1069
28.500000 74.592 -99.1635
29.000000 74.697 -100.6652
29.500000 74.660 -102.0068
30.000000 74.541 -102.2239
30.400000 74.505 -101.4833
30.700001 74.564 -100.7054
31.100000 74.760 -99.9280
31.500000 75.018 -99.9058
32.000000 75.289 -100.9711
32.500000 75.416 -102.6341
33.000000 75.406 -104.0952
33.500000 75.317 -104.8680
34.000000 75.237 -104.7843
34.500000 75.262 -104.0262
35.000000 75.451 -103.2284
35.500000 75.761 -103.1547
36.000000 76.069 -104.0950
36.500000 76.274 -105.6298
37.000000 76.375 -107.0439
37.500000 76.440 -107.9645
38.200001 76.568 -108.7821
38.700001 76.670 -109.3752
39.500000 76.784 -110.1480
40.000000 76.851 -110.2887
40.599998 76.974 -110.2419
41.200001 77.147 -110.2940
41.799999 77.338 -110.6819
42.500000 77.529 -111.5930
43.099998 77.632 -112.5150
43.700001 77.696 -113.2557
44.400002 77.779 -113.8805
45.000000 77.864 -114.4316
45.500000 77.926 -114.9066
46.200001 78.006 -115.4171
46.799999 78.094 -115.7434
47.500000 78.204 -116.1958
48.200001 78.292 -116.5469
48.700001 78.368 -116.5874
49.400002 78.542 -116.6881
50.000000 78.712 -117.2893
50.799999 78.827 -118.6718
51.500000 78.814 -119.5375
52.200001 78.807 -119.7642
53.000000 78.882 -119.8368
53.799999 79.007 -120.1812
54.500000 79.125 -120.7022
55.200001 79.236 -121.3950
56.000000 79.332 -122.2704
57.000000 79.411 -123.1122
58.000000 79.505 -123.5499
59.000000 79.632 -124.0613
60.000000 79.701 -124.7231
60.799999 79.735 -124.9029
61.500000 79.809 -125.0054
62.200001 79.897 -125.4322
63.000000 79.950 -126.1486
64.000000 79.989 -126.7239
65.000000 80.100 -127.2306
66.000000 80.230 -128.2122
67.000000 80.301 -129.2802
68.000000 80.360 -129.8977
69.000000 80.477 -130.3989
70.000000 80.587 -131.2405
71.000000 80.625 -132.0558
72.000000 80.644 -132.4396
73.000000 80.712 -132.6899
74.000000 80.801 -133.2417
75.000000 80.862 -134.0078
76.199997 80.906 -134.8767
77.500000 80.952 -135.6843
78.800003 81.019 -136.3350
80.000000 81.114 -136.9745
81.199997 81.206 -137.7604
82.500000 81.278 -138.6405
83.800003 81.316 -139.3707
85.000000 81.346 -139.8434
86.199997 81.384 -140.2630
87.500000 81.430 -140.7202
88.500000 81.472 -141.1186
90.000000 81.538 -141.8614
91.199997 81.584 -142.5485
92.500000 81.630 -143.3063
93.800003 81.674 -144.0463
95.000000 81.712 -144.6870
96.199997 81.747 -145.2382
97.500000 81.788 -145.7382
98.800003 81.834 -146.2159
100.000000 81.868 -146.7462
101.500000 81.879 -147.4380
103.000000 81.885 -148.0522
104.400002 81.903 -148.6465
106.000000 81.938 -149.3505
107.500000 81.967 -150.0090
109.000000 81.970 -150.5186
110.599998 81.969 -150.8843
112.000000 81.966 -151.2834
113.800003 81.961 -151.9128
115.000000 81.972 -152.4095
117.199997 82.015 -153.3853
118.000000 82.032 -153.7067
120.599998 82.062 -154.5020
122.000000 82.062 -154.8247
124.099998 82.055 -155.3710
125.000000 82.051 -155.6484
126.500000 82.046 -156.0903
128.000000 82.055 -156.4690
131.500000 82.077 -157.4011
132.000000 82.074 -157.5280
134.000000 82.061 -158.0211
136.000000 82.050 -158.5085
138.000000 82.049 -158.9146
140.000000 82.059 -159.3172
143.000000 82.053 -159.9862
145.000000 82.039 -160.4474
147.500000 82.021 -161.0373
150.000000 82.005 -161.5701
152.500000 81.997 -162.0438
155.000000 81.985 -162.5100
157.500000 81.967 -162.9086
160.000000 81.946 -163.2659
162.500000 81.919 -163.5974
165.000000 81.890 -163.9025
167.500000 81.864 -164.2487
170.000000 81.839 -164.5881
172.500000 81.817 -164.8997
175.000000 81.798 -165.1941
177.500000 81.782 -165.4960
180.000000 81.769 -165.8060
182.500000 81.757 -166.1005
185.000000 81.749 -166.3787
187.500000 81.744 -166.6750
190.000000 81.733 -166.9684
192.500000 81.723 -167.2293
195.000000 81.719 -167.4945
197.500000 81.718 -167.7844
200.000000 81.711 -168.0720
203.000000 81.689 -168.3271
206.000000 81.668 -168.5162
209.000000 81.649 -168.7125
212.000000 81.630 -168.8683
214.000000 81.618 -168.9509
218.000000 81.598 -169.1271
220.000000 81.588 -169.2568
224.000000 81.564 -169.5345
227.000000 81.547 -169.7299
230.000000 81.532 -169.9314
233.000000 81.518 -170.1318
236.000000 81.506 -170.3171
240.000000 81.491 -170.5634
243.000000 81.480 -170.7490
247.000000 81.461 -170.9018
250.000000 81.443 -170.9581
254.000000 81.419 -171.0919
258.000000 81.397 -171.2236
262.000000 81.374 -171.3410
265.000000 81.358 -171.4475
269.000000 81.339 -171.6116
272.000000 81.328 -171.7519
276.000000 81.320 -171.9391
280.000000 81.317 -172.0995
285.000000 81.312 -172.2907
290.000000 81.312 -172.5103
295.000000 81.314 -172.7129
300.000000 81.316 -172.9177
304.000000 81.314 -173.1695
307.000000 81.312 -173.3812
311.000000 81.312 -173.6595
315.000000 81.311 -173.9558
320.000000 81.304 -174.3956
325.000000 81.290 -174.9583
330.000000 81.261 -175.6962
335.000000 81.199 -176.6072
340.000000 81.077 -177.5605
345.000000 80.879 -178.3130
350.000000 80.627 -178.5032
355.000000 80.390 -177.9285
360.000000 80.222 -176.8599
365.000000 80.136 -175.6978
370.000000 80.112 -174.6813
375.000000 80.118 -173.8696
382.000000 80.148 -172.9913
387.000000 80.178 -172.5170
395.000000 80.237 -171.9936
400.000000 80.271 -171.7539
406.000000 80.302 -171.5013
412.000000 80.325 -171.3300
418.000000 80.342 -171.2227
425.000000 80.353 -171.1268
431.000000 80.362 -171.0239
437.000000 80.368 -170.9185
444.000000 80.371 -170.8011
450.000000 80.373 -170.7173
455.000000 80.373 -170.6602
462.000000 80.372 -170.5740
468.000000 80.373 -170.4824
475.000000 80.373 -170.3639
482.000000 80.371 -170.2540
487.000000 80.369 -170.1641
494.000000 80.365 -170.0268
500.000000 80.360 -169.9128
508.000000 80.355 -169.7360
515.000000 80.355 -169.5698
522.000000 80.356 -169.4069
530.000000 80.357 -169.2315
538.000000 80.357 -169.0555
545.000000 80.355 -168.8979
552.000000 80.354 -168.7465
560.000000 80.353 -168.5776
570.000000 80.352 -168.3921
580.000000 80.355 -168.2335
590.000000 80.353 -168.0246
600.000000 80.346 -167.8045
608.000000 80.344 -167.6335
615.000000 80.341 -167.4802
622.000000 80.335 -167.3203
630.000000 80.328 -167.1277
640.000000 80.316 -166.8745
650.000000 80.304 -166.6253
660.000000 80.295 -166.3892
670.000000 80.289 -166.1632
680.000000 80.282 -165.9570
690.000000 80.279 -165.7717
700.000000 80.281 -165.6140
710.000000 80.284 -165.4401
720.000000 80.288 -165.2505
730.000000 80.290 -165.0361
740.000000 80.291 -164.7968
750.000000 80.294 -164.5751
762.000000 80.301 -164.3707
775.000000 80.302 -164.1923
788.000000 80.299 -163.9301
800.000000 80.298 -163.6553
812.000000 80.298 -163.3873
825.000000 80.293 -163.0947
838.000000 80.286 -162.7908
850.000000 80.282 -162.5020
862.000000 80.281 -162.2221
875.000000 80.281 -161.9545
885.000000 80.282 -161.7474
900.000000 80.286 -161.4290
912.000000 80.290 -161.1600
925.000000 80.293 -160.8228
938.000000 80.295 -160.4316
950.000000 80.295 -160.0569
962.000000 80.296 -159.6913
975.000000 80.296 -159.2795
988.000000 80.297 -158.8392
1000.000000 80.300 -158.4174
1015.000000 80.303 -157.9039
1030.000000 80.309 -157.3868
1044.000000 80.319 -156.8970
1060.000000 80.336 -156.3546
1075.000000 80.355 -155.8576
1090.000000 80.379 -155.3598
1106.000000 80.410 -154.8188
1120.000000 80.441 -154.3473
1138.000000 80.486 -153.7601
1150.000000 80.517 -153.3780
1172.000000 80.574 -152.6742
1180.000000 80.596 -152.4163
1206.000000 80.673 -151.5973
1220.000000 80.720 -151.1664
1241.000000 80.790 -150.5549
1250.000000 80.820 -150.3089
1265.000000 80.872 -149.8989
1280.000000 80.926 -149.4729
1315.000000 81.062 -148.5059
1320.000000 81.083 -148.3722
1340.000000 81.168 -147.8602
1360.000000 81.260 -147.4125
1380.000000 81.351 -147.0077
1400.000000 81.441 -146.6079
1430.000000 81.575 -145.9828
1450.000000 81.667 -145.6010
1475.000000 81.785 -145.1757
1500.000000 81.908 -144.7965
1525.000000 82.032 -144.4449
1550.000000 82.152 -144.0900
1575.000000 82.276 -143.7334
1600.000000 82.408 -143.4231
1625.000000 82.538 -143.1819
1650.000000 82.672 -143.0131
1675.000000 82.806 -142.9277
1700.000000 82.936 -142.9014
1725.000000 83.061 -142.9279
1750.000000 83.183 -142.9636
1775.000000 83.303 -143.0112
1800.000000 83.422 -143.0953
1825.000000 83.533 -143.2155
1850.000000 83.639 -143.3063
1875.000000 83.747 -143.3945
1900.000000 83.851 -143.5309
1925.000000 83.953 -143.7010
1950.000000 84.057 -143.9065
1975.000000 84.159 -144.1640
2000.000000 84.253 -144.4474
2030.000000 84.364 -144.7803
2060.000000 84.476 -145.1483
2090.000000 84.580 -145.5728
2120.000000 84.678 -146.0216
2140.000000 84.743 -146.3456
2180.000000 84.865 -147.0706
2200.000000 84.920 -147.4465
2240.000000 85.023 -148.2218
2270.000000 85.087 -148.8301
2300.000000 85.133 -149.4275
2330.000000 85.155 -149.9462
2360.000000 85.165 -150.2504
2400.000000 85.224 -150.3613
2430.000000 85.317 -150.5909
2470.000000 85.437 -151.3034
2500.000000 85.507 -151.9608
2540.000000 85.579 -152.9584
2580.000000 85.623 -154.0272
2620.000000 85.644 -155.1012
2650.000000 85.650 -155.8689
2690.000000 85.655 -156.8796
2720.000000 85.644 -157.6281
2760.000000 85.618 -158.5820
2800.000000 85.582 -159.5099
2850.000000 85.522 -160.6482
2900.000000 85.442 -161.8206
2950.000000 85.326 -162.9315
3000.000000 85.197 -163.8347
3040.000000 85.087 -164.4285
3070.000000 85.006 -164.8670
3110.000000 84.898 -165.4583
3150.000000 84.782 -166.0320
3200.000000 84.628 -166.6904
3250.000000 84.458 -167.2316
3300.000000 84.273 -167.6645
3350.000000 84.069 -168.0023
3400.000000 83.860 -168.1155
3450.000000 83.667 -168.0488
3500.000000 83.480 -167.9026
3550.000000 83.286 -167.6525
3600.000000 83.096 -167.2550
3650.000000 82.922 -166.7451
3700.000000 82.760 -166.1851
3750.000000 82.613 -165.6322
3820.000000 82.424 -164.8818
3870.000000 82.286 -164.3157
3950.000000 82.050 -163.3643
4000.000000 81.895 -162.5908
4060.000000 81.732 -161.4407
4120.000000 81.596 -160.2571
4180.000000 81.468 -159.0905
4250.000000 81.327 -157.6210
4310.000000 81.227 -156.2479
4370.000000 81.146 -154.8512
4440.000000 81.068 -153.2010
4500.000000 81.018 -151.7321
4550.000000 80.995 -150.4686
4620.000000 80.997 -148.7597
4680.000000 81.015 -147.4240
4750.000000 81.042 -145.9524
4820.000000 81.072 -144.4912
4870.000000 81.100 -143.4238
4940.000000 81.159 -141.9226
5000.000000 81.228 -140.6965
5080.000000 81.334 -139.2115
5150.000000 81.426 -137.9716
5220.000000 81.522 -136.7018
5300.000000 81.647 -135.1645
5380.000000 81.807 -133.5061
5450.000000 81.992 -132.0274
5520.000000 82.226 -130.6538
5600.000000 82.552 -129.3438
5700.000000 83.018 -128.2690
5800.000000 83.525 -127.8765
5900.000000 84.051 -128.2797
6000.000000 84.548 -129.5425
6080.000000 84.892 -131.0219
6150.000000 85.156 -132.5496
6220.000000 85.383 -134.2277
6300.000000 85.610 -136.1873
6400.000000 85.890 -138.7719
6500.000000 86.161 -141.9282
6600.000000 86.360 -145.8522
6700.000000 86.421 -150.2814
6800.000000 86.337 -154.7413
6900.000000 86.136 -159.0188
7000.000000 85.833 -162.9805
7100.000000 85.449 -166.5701
7200.000000 84.992 -169.7671
7300.000000 84.468 -172.5250
7400.000000 83.877 -174.7137
7500.000000 83.243 -176.0970
7620.000000 82.503 -176.7599
7750.000000 81.776 -176.6683
7880.000000 81.108 -176.1356
8000.000000 80.522 -175.0788
8120.000000 79.992 -173.4161
8250.000000 79.528 -170.9829
8380.000000 79.244 -168.3240
8500.000000 79.115 -166.2274
8620.000000 79.061 -164.5321
8750.000000 79.062 -163.0948
8850.000000 79.100 -162.2999
9000.000000 79.193 -161.7253
9120.000000 79.256 -161.7166
9250.000000 79.313 -161.9045
9380.000000 79.377 -162.2988
9500.000000 79.438 -162.8463
9620.000000 79.502 -163.5290
9750.000000 79.586 -164.3994
9880.000000 79.714 -165.5152
10000.000000 79.866 -167.0714
10150.000000 80.045 -170.1420
10300.000000 80.080 -174.8022
10440.000000 79.757 179.8121
10600.000000 78.670 176.3632
10750.000000 77.390 -177.9393
10900.000000 77.601 -166.5900
11060.000000 79.309 -160.5726
11200.000000 80.753 -162.3987
11380.000000 82.104 -169.7651
11500.000000 82.723 -175.9873
11720.000000 83.422 171.9014
11800.000000 83.571 167.4900
12060.000000 83.779 153.5291
12200.000000 83.768 146.4521
12410.000000 83.705 136.3047
12500.000000 83.670 131.9877
12650.000000 83.595 124.7831
12800.000000 83.509 117.6177
13150.000000 83.365 100.3506
13200.000000 83.347 97.7608
13400.000000 83.286 87.0583
13600.000000 83.274 75.4817
13800.000000 83.284 62.3253
14000.000000 83.206 47.1022
14300.000000 82.606 20.6068
14500.000000 81.699 1.9243
14750.000000 79.998 -20.0011
15000.000000 77.908 -39.0172
15250.000000 75.716 -55.3330
15500.000000 73.625 -70.0398
15750.000000 71.731 -84.0630
16000.000000 70.061 -98.1840
16250.000000 68.606 -112.9536
16500.000000 67.364 -128.8612
16750.000000 66.319 -146.2516
17000.000000 65.468 -165.4550
17250.000000 64.811 173.1902
17500.000000 64.338 149.2820
17750.000000 64.051 122.3652
18000.000000 63.962 92.1506
18250.000000 64.126 58.0874
18500.000000 64.600 18.9996
18750.000000 65.371 -26.8405
19000.000000 66.320 -81.9767
19250.000000 67.105 -149.3939
19500.000000 67.240 130.4053
19750.000000 66.497 48.0500
